File: Data files updated/Raman_intensities_for_averaging_over_all_angle.dat
#*** TO modes
# freq (cm1) abs Ipowder   abs I(XX)   abs I(XY)   abs I(XZ)   abs I(YY)   abs I(YZ)   abs I(ZZ)
0.00000e+00 6.48874e-12 3.13541e-14 2.86091e-15 2.86091e-15 3.13541e-14 2.86091e-15 3.13541e-14
1.60200e+00 6.56564e-12 3.17375e-14 2.88914e-15 2.88914e-15 3.17375e-14 2.88914e-15 3.17375e-14
3.20400e+00 6.64415e-12 3.21292e-14 2.91792e-15 2.91792e-15 3.21292e-14 2.91792e-15 3.21292e-14
4.80600e+00 6.72433e-12 3.25294e-14 2.94726e-15 2.94726e-15 3.25294e-14 2.94726e-15 3.25294e-14
6.40800e+00 6.80625e-12 3.29384e-14 2.97720e-15 2.97720e-15 3.29384e-14 2.97720e-15 3.29384e-14
8.01000e+00 6.88996e-12 3.33566e-14 3.00775e-15 3.00775e-15 3.33565e-14 3.00775e-15 3.33566e-14
9.61200e+00 6.97552e-12 3.37842e-14 3.03893e-15 3.03893e-15 3.37842e-14 3.03893e-15 3.37842e-14
1.12140e+01 7.06300e-12 3.42217e-14 3.07075e-15 3.07075e-15 3.42216e-14 3.07075e-15 3.42217e-14
1.28160e+01 7.15247e-12 3.46693e-14 3.10325e-15 3.10325e-15 3.46693e-14 3.10325e-15 3.46693e-14
1.44180e+01 7.24400e-12 3.51275e-14 3.13643e-15 3.13643e-15 3.51275e-14 3.13643e-15 3.51275e-14
1.60200e+01 7.33767e-12 3.55968e-14 3.17034e-15 3.17034e-15 3.55967e-14 3.17034e-15 3.55968e-14
1.76220e+01 7.43357e-12 3.60774e-14 3.20498e-15 3.20498e-15 3.60774e-14 3.20498e-15 3.60774e-14
1.92240e+01 7.53177e-12 3.65699e-14 3.24040e-15 3.24040e-15 3.65699e-14 3.24040e-15 3.65699e-14
2.08260e+01 7.63238e-12 3.70748e-14 3.27660e-15 3.27660e-15 3.70748e-14 3.27660e-15 3.70748e-14
2.24280e+01 7.73549e-12 3.75926e-14 3.31364e-15 3.31364e-15 3.75926e-14 3.31364e-15 3.75926e-14
2.40300e+01 7.84120e-12 3.81238e-14 3.35152e-15 3.35152e-15 3.81238e-14 3.35152e-15 3.81238e-14
2.56320e+01 7.94963e-12 3.86690e-14 3.39029e-15 3.39029e-15 3.86690e-14 3.39029e-15 3.86690e-14
2.72340e+01 8.06089e-12 3.92289e-14 3.42997e-15 3.42997e-15 3.92288e-14 3.42997e-15 3.92289e-14
2.88360e+01 8.17510e-12 3.98040e-14 3.47061e-15 3.47061e-15 3.98040e-14 3.47061e-15 3.98040e-14
3.04380e+01 8.29241e-12 4.03952e-14 3.51224e-15 3.51224e-15 4.03952e-14 3.51224e-15 4.03952e-14
3.20400e+01 8.41294e-12 4.10032e-14 3.55489e-15 3.55489e-15 4.10032e-14 3.55489e-15 4.10032e-14
3.36420e+01 8.53686e-12 4.16288e-14 3.59861e-15 3.59861e-15 4.16288e-14 3.59861e-15 4.16288e-14
3.52440e+01 8.66433e-12 4.22728e-14 3.64344e-15 3.64344e-15 4.22728e-14 3.64344e-15 4.22728e-14
3.68460e+01 8.79553e-12 4.29363e-14 3.68942e-15 3.68942e-15 4.29363e-14 3.68942e-15 4.29363e-14
3.84480e+01 8.93064e-12 4.36202e-14 3.73661e-15 3.73661e-15 4.36202e-14 3.73661e-15 4.36202e-14
4.00500e+01 9.06986e-12 4.43257e-14 3.78505e-15 3.78505e-15 4.43257e-14 3.78505e-15 4.43257e-14
4.16520e+01 9.21342e-12 4.50539e-14 3.83479e-15 3.83479e-15 4.50538e-14 3.83479e-15 4.50539e-14
4.32540e+01 9.36156e-12 4.58060e-14 3.88589e-15 3.88589e-15 4.58060e-14 3.88589e-15 4.58060e-14
4.48560e+01 9.51453e-12 4.65836e-14 3.93841e-15 3.93841e-15 4.65836e-14 3.93841e-15 4.65836e-14
4.64580e+01 9.67261e-12 4.73882e-14 3.99242e-15 3.99242e-15 4.73881e-14 3.99242e-15 4.73882e-14
4.80600e+01 9.83610e-12 4.82213e-14 4.04797e-15 4.04797e-15 4.82212e-14 4.04797e-15 4.82213e-14
4.96620e+01 1.00053e-11 4.90848e-14 4.10515e-15 4.10515e-15 4.90847e-14 4.10515e-15 4.90848e-14
5.12640e+01 1.01807e-11 4.99806e-14 4.16402e-15 4.16402e-15 4.99806e-14 4.16402e-15 4.99806e-14
5.28660e+01 1.03626e-11 5.09111e-14 4.22466e-15 4.22466e-15 5.09111e-14 4.22466e-15 5.09111e-14
5.44680e+01 1.05514e-11 5.18785e-14 4.28716e-15 4.28716e-15 5.18785e-14 4.28716e-15 5.18785e-14
5.60700e+01 1.07476e-11 5.28855e-14 4.35162e-15 4.35162e-15 5.28854e-14 4.35162e-15 5.28855e-14
5.76720e+01 1.09519e-11 5.39350e-14 4.41812e-15 4.41812e-15 5.39350e-14 4.41812e-15 5.39350e-14
5.92740e+01 1.11646e-11 5.50303e-14 4.48678e-15 4.48678e-15 5.50303e-14 4.48678e-15 5.50303e-14
6.08760e+01 1.13866e-11 5.61750e-14 4.55769e-15 4.55769e-15 5.61750e-14 4.55769e-15 5.61750e-14
6.24780e+01 1.16185e-11 5.73732e-14 4.63099e-15 4.63099e-15 5.73732e-14 4.63099e-15 5.73732e-14
6.40800e+01 1.18612e-11 5.86294e-14 4.70679e-15 4.70679e-15 5.86294e-14 4.70679e-15 5.86294e-14
6.56820e+01 1.21156e-11 5.99487e-14 4.78525e-15 4.78525e-15 5.99486e-14 4.78525e-15 5.99487e-14
6.72840e+01 1.23827e-11 6.13368e-14 4.86649e-15 4.86649e-15 6.13367e-14 4.86649e-15 6.13368e-14
6.88860e+01 1.26637e-11 6.28002e-14 4.95069e-15 4.95069e-15 6.28002e-14 4.95069e-15 6.28002e-14
7.04880e+01 1.29599e-11 6.43465e-14 5.03801e-15 5.03801e-15 6.43464e-14 5.03801e-15 6.43465e-14
7.20900e+01 1.32729e-11 6.59840e-14 5.12864e-15 5.12864e-15 6.59840e-14 5.12864e-15 6.59840e-14
7.36920e+01 1.36044e-11 6.77225e-14 5.22278e-15 5.22278e-15 6.77225e-14 5.22278e-15 6.77225e-14
7.52940e+01 1.39563e-11 6.95732e-14 5.32065e-15 5.32065e-15 6.95732e-14 5.32065e-15 6.95732e-14
7.68960e+01 1.43312e-11 7.15492e-14 5.42250e-15 5.42250e-15 7.15491e-14 5.42250e-15 7.15491e-14
7.84980e+01 1.47316e-11 7.36654e-14 5.52858e-15 5.52858e-15 7.36653e-14 5.52858e-15 7.36654e-14
8.01000e+01 1.51607e-11 7.59397e-14 5.63918e-15 5.63918e-15 7.59396e-14 5.63918e-15 7.59397e-14
8.17020e+01 1.56223e-11 7.83929e-14 5.75461e-15 5.75461e-15 7.83928e-14 5.75461e-15 7.83929e-14
8.33040e+01 1.61207e-11 8.10498e-14 5.87523e-15 5.87523e-15 8.10497e-14 5.87523e-15 8.10498e-14
8.49060e+01 1.66614e-11 8.39399e-14 6.00141e-15 6.00141e-15 8.39398e-14 6.00141e-15 8.39399e-14
8.65080e+01 1.72505e-11 8.70987e-14 6.13360e-15 6.13360e-15 8.70986e-14 6.13360e-15 8.70987e-14
8.81100e+01 1.78959e-11 9.05692e-14 6.27225e-15 6.27225e-15 9.05691e-14 6.27225e-15 9.05692e-14
8.97120e+01 1.86069e-11 9.44040e-14 6.41792e-15 6.41792e-15 9.44039e-14 6.41792e-15 9.44040e-14
9.13140e+01 1.93952e-11 9.86677e-14 6.57120e-15 6.57120e-15 9.86676e-14 6.57120e-15 9.86677e-14
9.29160e+01 2.02751e-11 1.03441e-13 6.73278e-15 6.73278e-15 1.03441e-13 6.73278e-15 1.03441e-13
9.45180e+01 2.12648e-11 1.08825e-13 6.90346e-15 6.90346e-15 1.08824e-13 6.90346e-15 1.08825e-13
9.61200e+01 2.23875e-11 1.14948e-13 7.08413e-15 7.08413e-15 1.14947e-13 7.08413e-15 1.14948e-13
9.77220e+01 2.36728e-11 1.21975e-13 7.27584e-15 7.27584e-15 1.21975e-13 7.27584e-15 1.21975e-13
9.93240e+01 2.51597e-11 1.30124e-13 7.47983e-15 7.47983e-15 1.30124e-13 7.47983e-15 1.30124e-13
1.00926e+02 2.68998e-11 1.39678e-13 7.69757e-15 7.69757e-15 1.39678e-13 7.69757e-15 1.39678e-13
1.02528e+02 2.89626e-11 1.51024e-13 7.93080e-15 7.93080e-15 1.51024e-13 7.93080e-15 1.51024e-13
1.04130e+02 3.14433e-11 1.64686e-13 8.18166e-15 8.18166e-15 1.64686e-13 8.18166e-15 1.64686e-13
1.05732e+02 3.44753e-11 1.81399e-13 8.45279e-15 8.45279e-15 1.81398e-13 8.45279e-15 1.81399e-13
1.07334e+02 3.82490e-11 2.02209e-13 8.74751e-15 8.74751e-15 2.02208e-13 8.74751e-15 2.02209e-13
1.08936e+02 4.30425e-11 2.28641e-13 9.07009e-15 9.07009e-15 2.28640e-13 9.07009e-15 2.28641e-13
1.10538e+02 4.92719e-11 2.62969e-13 9.42611e-15 9.42611e-15 2.62969e-13 9.42611e-15 2.62969e-13
1.12140e+02 5.75729e-11 3.08663e-13 9.82306e-15 9.82306e-15 3.08663e-13 9.82306e-15 3.08663e-13
1.13742e+02 6.89339e-11 3.71104e-13 1.02713e-14 1.02713e-14 3.71103e-13 1.02713e-14 3.71104e-13
1.15344e+02 8.48915e-11 4.58645e-13 1.07854e-14 1.07854e-14 4.58644e-13 1.07854e-14 4.58645e-13
1.16946e+02 1.07731e-10 5.83713e-13 1.13869e-14 1.13869e-14 5.83712e-13 1.13869e-14 5.83713e-13
1.18548e+02 1.40263e-10 7.61691e-13 1.21077e-14 1.21077e-14 7.61690e-13 1.21077e-14 7.61691e-13
1.20150e+02 1.83531e-10 9.98837e-13 1.29969e-14 1.29969e-14 9.98835e-13 1.29969e-14 9.98837e-13
1.21752e+02 2.29450e-10 1.25341e-12 1.41291e-14 1.41291e-14 1.25341e-12 1.41291e-14 1.25341e-12
1.23354e+02 2.55211e-10 1.40610e-12 1.56115e-14 1.56115e-14 1.40610e-12 1.56115e-14 1.40610e-12
1.24956e+02 2.46790e-10 1.38468e-12 1.75617e-14 1.75617e-14 1.38468e-12 1.75617e-14 1.38468e-12
1.26558e+02 2.22463e-10 1.28704e-12 1.99651e-14 1.99651e-14 1.28704e-12 1.99651e-14 1.28704e-12
1.28160e+02 2.01660e-10 1.21031e-12 2.23008e-14 2.23008e-14 1.21030e-12 2.23008e-14 1.21031e-12
1.29762e+02 1.82386e-10 1.12519e-12 2.34772e-14 2.34772e-14 1.12518e-12 2.34772e-14 1.12518e-12
1.31364e+02 1.56776e-10 9.75278e-13 2.31631e-14 2.31631e-14 9.75271e-13 2.31631e-14 9.75277e-13
1.32966e+02 1.28775e-10 7.94311e-13 2.23774e-14 2.23774e-14 7.94306e-13 2.23774e-14 7.94311e-13
1.34568e+02 1.05775e-10 6.41185e-13 2.20181e-14 2.20181e-14 6.41182e-13 2.20181e-14 6.41185e-13
1.36170e+02 8.98176e-11 5.33978e-13 2.23422e-14 2.23422e-14 5.33975e-13 2.23422e-14 5.33978e-13
1.37772e+02 7.99099e-11 4.67132e-13 2.33585e-14 2.33585e-14 4.67131e-13 2.33585e-14 4.67132e-13
1.39374e+02 7.47955e-11 4.32354e-13 2.50901e-14 2.50901e-14 4.32353e-13 2.50901e-14 4.32354e-13
1.40976e+02 7.37881e-11 4.25017e-13 2.76618e-14 2.76618e-14 4.25017e-13 2.76618e-14 4.25017e-13
1.42578e+02 7.68127e-11 4.44567e-13 3.13414e-14 3.13414e-14 4.44567e-13 3.13414e-14 4.44567e-13
1.44180e+02 8.40364e-11 4.91754e-13 3.65733e-14 3.65733e-14 4.91754e-13 3.65733e-14 4.91754e-13
1.45782e+02 9.45229e-11 5.58601e-13 4.39269e-14 4.39269e-14 5.58602e-13 4.39269e-14 5.58601e-13
1.47384e+02 1.03660e-10 6.09911e-13 5.36139e-14 5.36139e-14 6.09913e-13 5.36139e-14 6.09911e-13
1.48986e+02 1.04423e-10 5.96062e-13 6.38939e-14 6.38939e-14 5.96064e-13 6.38939e-14 5.96063e-13
1.50588e+02 9.59750e-11 5.21091e-13 6.96198e-14 6.96198e-14 5.21093e-13 6.96198e-14 5.21092e-13
1.52190e+02 8.38699e-11 4.34619e-13 6.70670e-14 6.70670e-14 4.34620e-13 6.70670e-14 4.34619e-13
1.53792e+02 7.28963e-11 3.65607e-13 5.99254e-14 5.99254e-14 3.65608e-13 5.99254e-14 3.65607e-13
1.55394e+02 6.48467e-11 3.17196e-13 5.34367e-14 5.34367e-14 3.17197e-13 5.34367e-14 3.17196e-13
1.56996e+02 5.95655e-11 2.84536e-13 4.94512e-14 4.94512e-14 2.84537e-13 4.94512e-14 2.84536e-13
1.58598e+02 5.63732e-11 2.62750e-13 4.78434e-14 4.78434e-14 2.62750e-13 4.78434e-14 2.62750e-13
1.60200e+02 5.46897e-11 2.48427e-13 4.81292e-14 4.81292e-14 2.48428e-13 4.81292e-14 2.48427e-13
1.61802e+02 5.41388e-11 2.39413e-13 4.99656e-14 4.99656e-14 2.39413e-13 4.99656e-14 2.39413e-13
1.63404e+02 5.45112e-11 2.34407e-13 5.32141e-14 5.32141e-14 2.34407e-13 5.32141e-14 2.34407e-13
1.65006e+02 5.57144e-11 2.32617e-13 5.79228e-14 5.79228e-14 2.32617e-13 5.79228e-14 2.32617e-13
1.66608e+02 5.77119e-11 2.33303e-13 6.43249e-14 6.43249e-14 2.33304e-13 6.43249e-14 2.33303e-13
1.68210e+02 6.04417e-11 2.35091e-13 7.28723e-14 7.28723e-14 2.35092e-13 7.28723e-14 2.35091e-13
1.69812e+02 6.38501e-11 2.36096e-13 8.43046e-14 8.43046e-14 2.36097e-13 8.43046e-14 2.36095e-13
1.71414e+02 6.81834e-11 2.36004e-13 9.97098e-14 9.97098e-14 2.36004e-13 9.97098e-14 2.36003e-13
1.73016e+02 7.39622e-11 2.36240e-13 1.20345e-13 1.20345e-13 2.36241e-13 1.20345e-13 2.36240e-13
1.74618e+02 8.13722e-11 2.37771e-13 1.46429e-13 1.46429e-13 2.37772e-13 1.46429e-13 2.37771e-13
1.76220e+02 8.93885e-11 2.40705e-13 1.74019e-13 1.74019e-13 2.40706e-13 1.74019e-13 2.40705e-13
1.77822e+02 9.57866e-11 2.44864e-13 1.94771e-13 1.94771e-13 2.44864e-13 1.94771e-13 2.44864e-13
1.79424e+02 1.00234e-10 2.50068e-13 2.07508e-13 2.07508e-13 2.50068e-13 2.07508e-13 2.50068e-13
1.81026e+02 1.05532e-10 2.56200e-13 2.22899e-13 2.22899e-13 2.56200e-13 2.22899e-13 2.56200e-13
1.82628e+02 1.14432e-10 2.63192e-13 2.51393e-13 2.51393e-13 2.63192e-13 2.51393e-13 2.63192e-13
1.84230e+02 1.28735e-10 2.71016e-13 2.99829e-13 2.99829e-13 2.71016e-13 2.99829e-13 2.71016e-13
1.85832e+02 1.50449e-10 2.79670e-13 3.75799e-13 3.75799e-13 2.79670e-13 3.75799e-13 2.79670e-13
1.87434e+02 1.82658e-10 2.89173e-13 4.90974e-13 4.90974e-13 2.89173e-13 4.90974e-13 2.89173e-13
1.89036e+02 2.29593e-10 2.99559e-13 6.61356e-13 6.61356e-13 2.99559e-13 6.61356e-13 2.99559e-13
1.90638e+02 2.94124e-10 3.10881e-13 8.97784e-13 8.97784e-13 3.10881e-13 8.97784e-13 3.10881e-13
1.92240e+02 3.67735e-10 3.23202e-13 1.16794e-12 1.16794e-12 3.23202e-13 1.16794e-12 3.23202e-13
1.93842e+02 4.15860e-10 3.36602e-13 1.34078e-12 1.34078e-12 3.36602e-13 1.34078e-12 3.36602e-13
1.95444e+02 4.00956e-10 3.51177e-13 1.27398e-12 1.27398e-12 3.51177e-13 1.27398e-12 3.51177e-13
1.97046e+02 3.39258e-10 3.67042e-13 1.02896e-12 1.02896e-12 3.67042e-13 1.02896e-12 3.67042e-13
1.98648e+02 2.74013e-10 3.84329e-13 7.69534e-13 7.69534e-13 3.84329e-13 7.69534e-13 3.84329e-13
2.00250e+02 2.25094e-10 4.03200e-13 5.70886e-13 5.70886e-13 4.03200e-13 5.70886e-13 4.03200e-13
2.01852e+02 1.92915e-10 4.23842e-13 4.34467e-13 4.34467e-13 4.23842e-13 4.34467e-13 4.23842e-13
2.03454e+02 1.72442e-10 4.46483e-13 3.41044e-13 3.41044e-13 4.46483e-13 3.41044e-13 4.46483e-13
2.05056e+02 1.58818e-10 4.71396e-13 2.72035e-13 2.72035e-13 4.71396e-13 2.72035e-13 4.71396e-13
2.06658e+02 1.49569e-10 4.98915e-13 2.17849e-13 2.17849e-13 4.98915e-13 2.17849e-13 4.98915e-13
2.08260e+02 1.44081e-10 5.29456e-13 1.75898e-13 1.75898e-13 5.29456e-13 1.75898e-13 5.29456e-13
2.09862e+02 1.41922e-10 5.63546e-13 1.44212e-13 1.44212e-13 5.63546e-13 1.44212e-13 5.63546e-13
2.11464e+02 1.42547e-10 6.01865e-13 1.20309e-13 1.20309e-13 6.01865e-13 1.20309e-13 6.01865e-13
2.13066e+02 1.45531e-10 6.45323e-13 1.02032e-13 1.02032e-13 6.45323e-13 1.02032e-13 6.45323e-13
2.14668e+02 1.50649e-10 6.95170e-13 8.78023e-14 8.78023e-14 6.95170e-13 8.78023e-14 6.95170e-13
2.16270e+02 1.57879e-10 7.53169e-13 7.65253e-14 7.65253e-14 7.53169e-13 7.65253e-14 7.53169e-13
2.17872e+02 1.67397e-10 8.21861e-13 6.74441e-14 6.74441e-14 8.21861e-13 6.74441e-14 8.21861e-13
2.19474e+02 1.79582e-10 9.04822e-13 6.00275e-14 6.00275e-14 9.04822e-13 6.00275e-14 9.04822e-13
2.21076e+02 1.94964e-10 1.00639e-12 5.38953e-14 5.38953e-14 1.00639e-12 5.38953e-14 1.00639e-12
2.22678e+02 2.13831e-10 1.12878e-12 4.87704e-14 4.87704e-14 1.12878e-12 4.87704e-14 1.12878e-12
2.24280e+02 2.34986e-10 1.26266e-12 4.44469e-14 4.44469e-14 1.26266e-12 4.44469e-14 1.26266e-12
2.25882e+02 2.54758e-10 1.37971e-12 4.07696e-14 4.07696e-14 1.37971e-12 4.07696e-14 1.37971e-12
2.27484e+02 2.70942e-10 1.46245e-12 3.76194e-14 3.76194e-14 1.46245e-12 3.76194e-14 1.46245e-12
2.29086e+02 2.87050e-10 1.53639e-12 3.49041e-14 3.49041e-14 1.53639e-12 3.49041e-14 1.53639e-12
2.30688e+02 3.07627e-10 1.63450e-12 3.25516e-14 3.25516e-14 1.63450e-12 3.25516e-14 1.63450e-12
2.32290e+02 3.34838e-10 1.77118e-12 3.05051e-14 3.05051e-14 1.77118e-12 3.05051e-14 1.77118e-12
2.33892e+02 3.69705e-10 1.95153e-12 2.87197e-14 2.87197e-14 1.95153e-12 2.87197e-14 1.95153e-12
2.35494e+02 4.13391e-10 2.18078e-12 2.71605e-14 2.71605e-14 2.18078e-12 2.71605e-14 2.18078e-12
2.37096e+02 4.67705e-10 2.46778e-12 2.58011e-14 2.58011e-14 2.46778e-12 2.58011e-14 2.46778e-12
2.38698e+02 5.35371e-10 2.82650e-12 2.46229e-14 2.46229e-14 2.82650e-12 2.46229e-14 2.82650e-12
2.40300e+02 6.20370e-10 3.27776e-12 2.36148e-14 2.36148e-14 3.27776e-12 2.36148e-14 3.27776e-12
2.41902e+02 7.28476e-10 3.85202e-12 2.27697e-14 2.27697e-14 3.85202e-12 2.27697e-14 3.85202e-12
2.43504e+02 8.68153e-10 4.59413e-12 2.20701e-14 2.20701e-14 4.59413e-12 2.20701e-14 4.59413e-12
2.45106e+02 1.05202e-09 5.57110e-12 2.14506e-14 2.14506e-14 5.57110e-12 2.14506e-14 5.57110e-12
2.46708e+02 1.29929e-09 6.88506e-12 2.07943e-14 2.07943e-14 6.88506e-12 2.07943e-14 6.88506e-12
2.48310e+02 1.63980e-09 8.69454e-12 2.00630e-14 2.00630e-14 8.69454e-12 2.00630e-14 8.69454e-12
2.49912e+02 2.12043e-09 1.12483e-11 1.93463e-14 1.93463e-14 1.12483e-11 1.93463e-14 1.12483e-11
2.51514e+02 2.81371e-09 1.49314e-11 1.87186e-14 1.87186e-14 1.49314e-11 1.87186e-14 1.49314e-11
2.53116e+02 3.82279e-09 2.02918e-11 1.81928e-14 1.81928e-14 2.02918e-11 1.81928e-14 2.02918e-11
2.54718e+02 5.25098e-09 2.78784e-11 1.77570e-14 1.77570e-14 2.78784e-11 1.77570e-14 2.78784e-11
2.56320e+02 7.03406e-09 3.73516e-11 1.73976e-14 1.73976e-14 3.73516e-11 1.73976e-14 3.73516e-11
2.57922e+02 8.55461e-09 4.54361e-11 1.71048e-14 1.71048e-14 4.54361e-11 1.71048e-14 4.54361e-11
2.59524e+02 8.71980e-09 4.63298e-11 1.68723e-14 1.68723e-14 4.63298e-11 1.68723e-14 4.63298e-11
2.61126e+02 7.38074e-09 3.92323e-11 1.66968e-14 1.66968e-14 3.92323e-11 1.66968e-14 3.92323e-11
2.62728e+02 5.57905e-09 2.96643e-11 1.65774e-14 1.65774e-14 2.96643e-11 1.65774e-14 2.96643e-11
2.64330e+02 4.06781e-09 2.16298e-11 1.65151e-14 1.65151e-14 2.16298e-11 1.65151e-14 2.16298e-11
2.65932e+02 2.98470e-09 1.58682e-11 1.65133e-14 1.65133e-14 1.58682e-11 1.65133e-14 1.58682e-11
2.67534e+02 2.23952e-09 1.19038e-11 1.65778e-14 1.65778e-14 1.19038e-11 1.65778e-14 1.19038e-11
2.69136e+02 1.72471e-09 9.16506e-12 1.67179e-14 1.67179e-14 9.16506e-12 1.67179e-14 9.16506e-12
2.70738e+02 1.36187e-09 7.23504e-12 1.69469e-14 1.69470e-14 7.23504e-12 1.69469e-14 7.23504e-12
2.72340e+02 1.09987e-09 5.84165e-12 1.72851e-14 1.72851e-14 5.84165e-12 1.72851e-14 5.84165e-12
2.73942e+02 9.06125e-10 4.81143e-12 1.77619e-14 1.77619e-14 4.81143e-12 1.77619e-14 4.81143e-12
2.75544e+02 7.59702e-10 4.03288e-12 1.84215e-14 1.84215e-14 4.03288e-12 1.84215e-14 4.03288e-12
2.77146e+02 6.46900e-10 3.43304e-12 1.93311e-14 1.93311e-14 3.43304e-12 1.93311e-14 3.43304e-12
2.78748e+02 5.58562e-10 2.96306e-12 2.05948e-14 2.05948e-14 2.96306e-12 2.05948e-14 2.96306e-12
2.80350e+02 4.88447e-10 2.58957e-12 2.23738e-14 2.23738e-14 2.58957e-12 2.23738e-14 2.58957e-12
2.81952e+02 4.32228e-10 2.28924e-12 2.49114e-14 2.49114e-14 2.28924e-12 2.49114e-14 2.28924e-12
2.83554e+02 3.86867e-10 2.04556e-12 2.85259e-14 2.85259e-14 2.04556e-12 2.85259e-14 2.04556e-12
2.85156e+02 3.50167e-10 1.84662e-12 3.34261e-14 3.34261e-14 1.84662e-12 3.34261e-14 1.84662e-12
2.86758e+02 3.20322e-10 1.68385e-12 3.89974e-14 3.89974e-14 1.68385e-12 3.89974e-14 1.68385e-12
2.88360e+02 2.95504e-10 1.55106e-12 4.28392e-14 4.28392e-14 1.55105e-12 4.28392e-14 1.55105e-12
2.89962e+02 2.74222e-10 1.44395e-12 4.25545e-14 4.25545e-14 1.44395e-12 4.25545e-14 1.44395e-12
2.91564e+02 2.56258e-10 1.35982e-12 3.95288e-14 3.95288e-14 1.35982e-12 3.95288e-14 1.35982e-12
2.93166e+02 2.42082e-10 1.29744e-12 3.68181e-14 3.68181e-14 1.29744e-12 3.68181e-14 1.29744e-12
2.94768e+02 2.31997e-10 1.25722e-12 3.58958e-14 3.58958e-14 1.25722e-12 3.58958e-14 1.25722e-12
2.96370e+02 2.26312e-10 1.24168e-12 3.70975e-14 3.70975e-14 1.24168e-12 3.70975e-14 1.24168e-12
2.97972e+02 2.25705e-10 1.25617e-12 4.06449e-14 4.06449e-14 1.25617e-12 4.06449e-14 1.25617e-12
2.99574e+02 2.31461e-10 1.30997e-12 4.70540e-14 4.70540e-14 1.30997e-12 4.70540e-14 1.30997e-12
3.01176e+02 2.45465e-10 1.41623e-12 5.71141e-14 5.71141e-14 1.41623e-12 5.71141e-14 1.41623e-12
3.02778e+02 2.69040e-10 1.58481e-12 7.10956e-14 7.10956e-14 1.58480e-12 7.10956e-14 1.58480e-12
3.04380e+02 2.98344e-10 1.79264e-12 8.61195e-14 8.61195e-14 1.79264e-12 8.61195e-14 1.79264e-12
3.05982e+02 3.17451e-10 1.93636e-12 9.36574e-14 9.36574e-14 1.93636e-12 9.36574e-14 1.93635e-12
3.07584e+02 3.08583e-10 1.89418e-12 8.73272e-14 8.73272e-14 1.89418e-12 8.73272e-14 1.89418e-12
3.09186e+02 2.78902e-10 1.70875e-12 7.30516e-14 7.30516e-14 1.70875e-12 7.30516e-14 1.70874e-12
3.10788e+02 2.49201e-10 1.52032e-12 5.95632e-14 5.95632e-14 1.52032e-12 5.95632e-14 1.52032e-12
3.12390e+02 2.29909e-10 1.40179e-12 4.99954e-14 4.99954e-14 1.40179e-12 4.99954e-14 1.40179e-12
3.13992e+02 2.22668e-10 1.36610e-12 4.41567e-14 4.41567e-14 1.36610e-12 4.41567e-14 1.36610e-12
3.15594e+02 2.27427e-10 1.41455e-12 4.12582e-14 4.12582e-14 1.41455e-12 4.12582e-14 1.41455e-12
3.17196e+02 2.45282e-10 1.55653e-12 4.07848e-14 4.07848e-14 1.55653e-12 4.07848e-14 1.55653e-12
3.18798e+02 2.78443e-10 1.80906e-12 4.26369e-14 4.26369e-14 1.80906e-12 4.26369e-14 1.80906e-12
3.20400e+02 3.26613e-10 2.16930e-12 4.71388e-14 4.71388e-14 2.16930e-12 4.71388e-14 2.16931e-12
3.22002e+02 3.76421e-10 2.53453e-12 5.50053e-14 5.50053e-14 2.53453e-12 5.50053e-14 2.53454e-12
3.23604e+02 3.95410e-10 2.65733e-12 6.69717e-14 6.69717e-14 2.65733e-12 6.69717e-14 2.65734e-12
3.25206e+02 3.66332e-10 2.40885e-12 8.21232e-14 8.21232e-14 2.40885e-12 8.21232e-14 2.40885e-12
3.26808e+02 3.13693e-10 1.98693e-12 9.44055e-14 9.44055e-14 1.98693e-12 9.44055e-14 1.98693e-12
3.28410e+02 2.63382e-10 1.60706e-12 9.41926e-14 9.41926e-14 1.60705e-12 9.41926e-14 1.60706e-12
3.30012e+02 2.23452e-10 1.33069e-12 8.12697e-14 8.12697e-14 1.33069e-12 8.12697e-14 1.33070e-12
3.31614e+02 1.94529e-10 1.14361e-12 6.51365e-14 6.51365e-14 1.14361e-12 6.51365e-14 1.14361e-12
3.33216e+02 1.74848e-10 1.02013e-12 5.19347e-14 5.19347e-14 1.02013e-12 5.19347e-14 1.02013e-12
3.34818e+02 1.62052e-10 9.40600e-13 4.25608e-14 4.25608e-14 9.40600e-13 4.25608e-14 9.40601e-13
3.36420e+02 1.54261e-10 8.92498e-13 3.61437e-14 3.61437e-14 8.92498e-13 3.61437e-14 8.92499e-13
3.38022e+02 1.50270e-10 8.68571e-13 3.17389e-14 3.17389e-14 8.68571e-13 3.17389e-14 8.68572e-13
3.39624e+02 1.49443e-10 8.65313e-13 2.86704e-14 2.86704e-14 8.65313e-13 2.86704e-14 8.65314e-13
3.41226e+02 1.51595e-10 8.82188e-13 2.64989e-14 2.64989e-14 8.82188e-13 2.64989e-14 8.82189e-13
3.42828e+02 1.56969e-10 9.21548e-13 2.49443e-14 2.49443e-14 9.21548e-13 2.49443e-14 9.21549e-13
3.44430e+02 1.66285e-10 9.89179e-13 2.38260e-14 2.38260e-14 9.89179e-13 2.38260e-14 9.89180e-13
3.46032e+02 1.80861e-10 1.09524e-12 2.30255e-14 2.30255e-14 1.09524e-12 2.30255e-14 1.09524e-12
3.47634e+02 2.02584e-10 1.25413e-12 2.24636e-14 2.24636e-14 1.25413e-12 2.24636e-14 1.25414e-12
3.49236e+02 2.32889e-10 1.47677e-12 2.20865e-14 2.20865e-14 1.47677e-12 2.20865e-14 1.47677e-12
3.50838e+02 2.68508e-10 1.73835e-12 2.18567e-14 2.18567e-14 1.73835e-12 2.18567e-14 1.73836e-12
3.52440e+02 2.94546e-10 1.92595e-12 2.17486e-14 2.17486e-14 1.92596e-12 2.17486e-14 1.92596e-12
3.54042e+02 2.93047e-10 1.90340e-12 2.17444e-14 2.17444e-14 1.90340e-12 2.17444e-14 1.90340e-12
3.55644e+02 2.69541e-10 1.71246e-12 2.18323e-14 2.18323e-14 1.71246e-12 2.18323e-14 1.71246e-12
3.57246e+02 2.43918e-10 1.50374e-12 2.20051e-14 2.20051e-14 1.50374e-12 2.20051e-14 1.50374e-12
3.58848e+02 2.26167e-10 1.35273e-12 2.22586e-14 2.22586e-14 1.35273e-12 2.22586e-14 1.35273e-12
3.60450e+02 2.17009e-10 1.26467e-12 2.25882e-14 2.25882e-14 1.26467e-12 2.25882e-14 1.26467e-12
3.62052e+02 2.14670e-10 1.22583e-12 2.29857e-14 2.29857e-14 1.22583e-12 2.29857e-14 1.22583e-12
3.63654e+02 2.17553e-10 1.22375e-12 2.34468e-14 2.34468e-14 1.22375e-12 2.34468e-14 1.22375e-12
3.65256e+02 2.24689e-10 1.25066e-12 2.39831e-14 2.39831e-14 1.25066e-12 2.39831e-14 1.25066e-12
3.66858e+02 2.35657e-10 1.30279e-12 2.46138e-14 2.46138e-14 1.30279e-12 2.46138e-14 1.30279e-12
3.68460e+02 2.50465e-10 1.37952e-12 2.53558e-14 2.53558e-14 1.37952e-12 2.53558e-14 1.37952e-12
3.70062e+02 2.69508e-10 1.48302e-12 2.62277e-14 2.62277e-14 1.48302e-12 2.62277e-14 1.48302e-12
3.71664e+02 2.93593e-10 1.61838e-12 2.72538e-14 2.72538e-14 1.61838e-12 2.72538e-14 1.61838e-12
3.73266e+02 3.24005e-10 1.79403e-12 2.84686e-14 2.84686e-14 1.79403e-12 2.84686e-14 1.79403e-12
3.74868e+02 3.62439e-10 2.02111e-12 2.99204e-14 2.99204e-14 2.02111e-12 2.99204e-14 2.02111e-12
3.76470e+02 4.10145e-10 2.30694e-12 3.16785e-14 3.16785e-14 2.30694e-12 3.16785e-14 2.30694e-12
3.78072e+02 4.65032e-10 2.63284e-12 3.38424e-14 3.38424e-14 2.63284e-12 3.38424e-14 2.63284e-12
3.79674e+02 5.19056e-10 2.93403e-12 3.65593e-14 3.65593e-14 2.93403e-12 3.65593e-14 2.93403e-12
3.81276e+02 5.67325e-10 3.16833e-12 4.00503e-14 4.00503e-14 3.16833e-12 4.00503e-14 3.16833e-12
3.82878e+02 6.19533e-10 3.40217e-12 4.46559e-14 4.46559e-14 3.40217e-12 4.46559e-14 3.40217e-12
3.84480e+02 6.89439e-10 3.72992e-12 5.09078e-14 5.09078e-14 3.72992e-12 5.09078e-14 3.72992e-12
3.86082e+02 7.86165e-10 4.20660e-12 5.96353e-14 5.96353e-14 4.20660e-12 5.96353e-14 4.20660e-12
3.87684e+02 9.17676e-10 4.87213e-12 7.20703e-14 7.20703e-14 4.87212e-12 7.20703e-14 4.87213e-12
3.89286e+02 1.09509e-09 5.78127e-12 8.97023e-14 8.97023e-14 5.78127e-12 8.97023e-14 5.78127e-12
3.90888e+02 1.33545e-09 7.02235e-12 1.12931e-13 1.12931e-13 7.02235e-12 1.12931e-13 7.02235e-12
3.92490e+02 1.66431e-09 8.73723e-12 1.36790e-13 1.36790e-13 8.73723e-12 1.36790e-13 8.73723e-12
3.94092e+02 2.12067e-09 1.11520e-11 1.47667e-13 1.47667e-13 1.11520e-11 1.47667e-13 1.11520e-11
3.95694e+02 2.76904e-09 1.46223e-11 1.36868e-13 1.36868e-13 1.46223e-11 1.36868e-13 1.46223e-11
3.97296e+02 3.71133e-09 1.96764e-11 1.14682e-13 1.14682e-13 1.96764e-11 1.14682e-13 1.96764e-11
3.98898e+02 5.06960e-09 2.69474e-11 9.40958e-14 9.40958e-14 2.69474e-11 9.40958e-14 2.69474e-11
4.00500e+02 6.87025e-09 3.65753e-11 7.92775e-14 7.92775e-14 3.65753e-11 7.92775e-14 3.65753e-11
4.02102e+02 8.69781e-09 4.63644e-11 6.96043e-14 6.96043e-14 4.63644e-11 6.96043e-14 4.63644e-11
4.03704e+02 9.46123e-09 5.05321e-11 6.36130e-14 6.36130e-14 5.05321e-11 6.36130e-14 5.05321e-11
4.05306e+02 8.51521e-09 4.56368e-11 6.01483e-14 6.01483e-14 4.56368e-11 6.01483e-14 4.56368e-11
4.06908e+02 6.68519e-09 3.59938e-11 5.84567e-14 5.84567e-14 3.59938e-11 5.84567e-14 3.59938e-11
4.08510e+02 4.94997e-09 2.67413e-11 5.80788e-14 5.80788e-14 2.67413e-11 5.80788e-14 2.67413e-11
4.10112e+02 3.63223e-09 1.96329e-11 5.87496e-14 5.87496e-14 1.96329e-11 5.87496e-14 1.96329e-11
4.11714e+02 2.70562e-09 1.45992e-11 6.03333e-14 6.03333e-14 1.45992e-11 6.03333e-14 1.45992e-11
4.13316e+02 2.06468e-09 1.11079e-11 6.27869e-14 6.27869e-14 1.11079e-11 6.27869e-14 1.11079e-11
4.14918e+02 1.61645e-09 8.66422e-12 6.61432e-14 6.61432e-14 8.66422e-12 6.61432e-14 8.66422e-12
4.16520e+02 1.29627e-09 6.91746e-12 7.05074e-14 7.05074e-14 6.91746e-12 7.05074e-14 6.91746e-12
4.18122e+02 1.06223e-09 5.63859e-12 7.60666e-14 7.60666e-14 5.63859e-12 7.60666e-14 5.63859e-12
4.19724e+02 8.87426e-10 4.68025e-12 8.31124e-14 8.31124e-14 4.68025e-12 8.31124e-14 4.68025e-12
4.21326e+02 7.54449e-10 3.94670e-12 9.20826e-14 9.20826e-14 3.94670e-12 9.20826e-14 3.94670e-12
4.22928e+02 6.51838e-10 3.37447e-12 1.03631e-13 1.03631e-13 3.37447e-12 1.03631e-13 3.37447e-12
4.24530e+02 5.71964e-10 2.92058e-12 1.18743e-13 1.18743e-13 2.92058e-12 1.18743e-13 2.92058e-12
4.26132e+02 5.09754e-10 2.55522e-12 1.38929e-13 1.38929e-13 2.55522e-12 1.38929e-13 2.55522e-12
4.27734e+02 4.61953e-10 2.25734e-12 1.66543e-13 1.66543e-13 2.25734e-12 1.66543e-13 2.25734e-12
4.29336e+02 4.26739e-10 2.01173e-12 2.05276e-13 2.05276e-13 2.01173e-12 2.05276e-13 2.01173e-12
4.30938e+02 4.03551e-10 1.80724e-12 2.60798e-13 2.60798e-13 1.80724e-12 2.60798e-13 1.80724e-12
4.32540e+02 3.92923e-10 1.63555e-12 3.40933e-13 3.40933e-13 1.63555e-12 3.40933e-13 1.63555e-12
4.34142e+02 3.95481e-10 1.49039e-12 4.52448e-13 4.52448e-13 1.49039e-12 4.52448e-13 1.49039e-12
4.35744e+02 4.07883e-10 1.36693e-12 5.86049e-13 5.86049e-13 1.36693e-12 5.86049e-13 1.36693e-12
4.37346e+02 4.15238e-10 1.26146e-12 6.87912e-13 6.87912e-13 1.26146e-12 6.87912e-13 1.26146e-12
4.38948e+02 3.96886e-10 1.17107e-12 6.81773e-13 6.81773e-13 1.17107e-12 6.81773e-13 1.17107e-12
4.40550e+02 3.54845e-10 1.09349e-12 5.76883e-13 5.76883e-13 1.09349e-12 5.76883e-13 1.09349e-12
4.42152e+02 3.09788e-10 1.02691e-12 4.52826e-13 4.52826e-13 1.02691e-12 4.52826e-13 1.02691e-12
4.43754e+02 2.73588e-10 9.69945e-13 3.55588e-13 3.55588e-13 9.69945e-13 3.55588e-13 9.69945e-13
4.45356e+02 2.47518e-10 9.21480e-13 2.90756e-13 2.90756e-13 9.21480e-13 2.90756e-13 9.21480e-13
4.46958e+02 2.29691e-10 8.80676e-13 2.51773e-13 2.51773e-13 8.80676e-13 2.51773e-13 8.80676e-13
4.48560e+02 2.18369e-10 8.46911e-13 2.32482e-13 2.32482e-13 8.46911e-13 2.32482e-13 8.46911e-13
4.50162e+02 2.12581e-10 8.19761e-13 2.29500e-13 2.29500e-13 8.19761e-13 2.29500e-13 8.19761e-13
4.51764e+02 2.11859e-10 7.98986e-13 2.41223e-13 2.41223e-13 7.98986e-13 2.41223e-13 7.98986e-13
4.53366e+02 2.15220e-10 7.84531e-13 2.63955e-13 2.63955e-13 7.84531e-13 2.63955e-13 7.84531e-13
4.54968e+02 2.19200e-10 7.76539e-13 2.84464e-13 2.84464e-13 7.76539e-13 2.84464e-13 7.76539e-13
4.56570e+02 2.18546e-10 7.75374e-13 2.82581e-13 2.82581e-13 7.75374e-13 2.82581e-13 7.75374e-13
4.58172e+02 2.13048e-10 7.81668e-13 2.57058e-13 2.57058e-13 7.81668e-13 2.57058e-13 7.81668e-13
4.59774e+02 2.07846e-10 7.96389e-13 2.26677e-13 2.26677e-13 7.96389e-13 2.26677e-13 7.96389e-13
4.61376e+02 2.06475e-10 8.20946e-13 2.03832e-13 2.03832e-13 8.20946e-13 2.03832e-13 8.20946e-13
4.62978e+02 2.09812e-10 8.57355e-13 1.90407e-13 1.90407e-13 8.57355e-13 1.90407e-13 8.57355e-13
4.64580e+02 2.17964e-10 9.08479e-13 1.84758e-13 1.84758e-13 9.08479e-13 1.84758e-13 9.08479e-13
4.66182e+02 2.31251e-10 9.78413e-13 1.85177e-13 1.85177e-13 9.78413e-13 1.85177e-13 9.78413e-13
4.67784e+02 2.50507e-10 1.07308e-12 1.90607e-13 1.90607e-13 1.07308e-12 1.90607e-13 1.07308e-12
4.69386e+02 2.77257e-10 1.20117e-12 2.00612e-13 2.00612e-13 1.20117e-12 2.00612e-13 1.20117e-12
4.70988e+02 3.13974e-10 1.37573e-12 2.15257e-13 2.15257e-13 1.37573e-12 2.15257e-13 1.37573e-12
4.72590e+02 3.64549e-10 1.61670e-12 2.35063e-13 2.35063e-13 1.61670e-12 2.35063e-13 1.61670e-12
4.74192e+02 4.35096e-10 1.95512e-12 2.61030e-13 2.61030e-13 1.95512e-12 2.61030e-13 1.95512e-12
4.75794e+02 5.35217e-10 2.43973e-12 2.94759e-13 2.94759e-13 2.43973e-12 2.94759e-13 2.43973e-12
4.77396e+02 6.79684e-10 3.14554e-12 3.38679e-13 3.38679e-13 3.14554e-12 3.38679e-13 3.14554e-12
4.78998e+02 8.89070e-10 4.17659e-12 3.96450e-13 3.96450e-13 4.17659e-12 3.96450e-13 4.17659e-12
4.80600e+02 1.18221e-09 5.62514e-12 4.73636e-13 4.73636e-13 5.62514e-12 4.73636e-13 5.62514e-12
4.82202e+02 1.53973e-09 7.37641e-12 5.78825e-13 5.78825e-13 7.37641e-12 5.78825e-13 7.37641e-12
4.83804e+02 1.83239e-09 8.72615e-12 7.25461e-13 7.25461e-13 8.72615e-12 7.25461e-13 8.72615e-12
4.85406e+02 1.87093e-09 8.64098e-12 9.34634e-13 9.34634e-13 8.64098e-12 9.34634e-13 8.64098e-12
4.87008e+02 1.67929e-09 7.20361e-12 1.23826e-12 1.23826e-12 7.20361e-12 1.23826e-12 7.20361e-12
4.88610e+02 1.46855e-09 5.47626e-12 1.67775e-12 1.67775e-12 5.47626e-12 1.67775e-12 5.47626e-12
4.90212e+02 1.36417e-09 4.09177e-12 2.27717e-12 2.27717e-12 4.09177e-12 2.27717e-12 4.09177e-12
4.91814e+02 1.35627e-09 3.13046e-12 2.94251e-12 2.94251e-12 3.13046e-12 2.94251e-12 3.13046e-12
4.93416e+02 1.33710e-09 2.50001e-12 3.33282e-12 3.33282e-12 2.50001e-12 3.33282e-12 2.50001e-12
4.95018e+02 1.20218e-09 2.10659e-12 3.12082e-12 3.12082e-12 2.10659e-12 3.12082e-12 2.10659e-12
4.96620e+02 9.88889e-10 1.88077e-12 2.49819e-12 2.49819e-12 1.88077e-12 2.49819e-12 1.88077e-12
4.98222e+02 7.89753e-10 1.75172e-12 1.86095e-12 1.86095e-12 1.75172e-12 1.86095e-12 1.75172e-12
4.99824e+02 6.33695e-10 1.62095e-12 1.37426e-12 1.37426e-12 1.62095e-12 1.37426e-12 1.62095e-12
5.01426e+02 5.10393e-10 1.42301e-12 1.03582e-12 1.03582e-12 1.42301e-12 1.03582e-12 1.42301e-12
5.03028e+02 4.13348e-10 1.19624e-12 8.04484e-13 8.04484e-13 1.19624e-12 8.04484e-13 1.19624e-12
5.04630e+02 3.40475e-10 9.99557e-13 6.44664e-13 6.44664e-13 9.99558e-13 6.44663e-13 9.99557e-13
5.06232e+02 2.87268e-10 8.49559e-13 5.32179e-13 5.32179e-13 8.49560e-13 5.32179e-13 8.49559e-13
5.07834e+02 2.48543e-10 7.39504e-13 4.51557e-13 4.51557e-13 7.39504e-13 4.51557e-13 7.39504e-13
5.09436e+02 2.20245e-10 6.59359e-13 3.92966e-13 3.92966e-13 6.59359e-13 3.92966e-13 6.59359e-13
5.11038e+02 1.99641e-10 6.01614e-13 3.50107e-13 3.50107e-13 6.01614e-13 3.50107e-13 6.01613e-13
5.12640e+02 1.85022e-10 5.61707e-13 3.18886e-13 3.18886e-13 5.61708e-13 3.18886e-13 5.61707e-13
5.14242e+02 1.75419e-10 5.37541e-13 2.96574e-13 2.96574e-13 5.37541e-13 2.96574e-13 5.37541e-13
5.15844e+02 1.70414e-10 5.29198e-13 2.81166e-13 2.81166e-13 5.29198e-13 2.81166e-13 5.29198e-13
5.17446e+02 1.70068e-10 5.39066e-13 2.70956e-13 2.70956e-13 5.39067e-13 2.70956e-13 5.39066e-13
5.19048e+02 1.75076e-10 5.72161e-13 2.64843e-13 2.64843e-13 5.72161e-13 2.64843e-13 5.72161e-13
5.20650e+02 1.86789e-10 6.35532e-13 2.62807e-13 2.62807e-13 6.35532e-13 2.62807e-13 6.35532e-13
5.22252e+02 2.05930e-10 7.32311e-13 2.65271e-13 2.65271e-13 7.32311e-13 2.65271e-13 7.32311e-13
5.23854e+02 2.28558e-10 8.40982e-13 2.72627e-13 2.72627e-13 8.40982e-13 2.72627e-13 8.40982e-13
5.25456e+02 2.41835e-10 8.92617e-13 2.85414e-13 2.85414e-13 8.92617e-13 2.85414e-13 8.92617e-13
5.27058e+02 2.35080e-10 8.29215e-13 3.04568e-13 3.04568e-13 8.29215e-13 3.04568e-13 8.29215e-13
5.28660e+02 2.16928e-10 6.94396e-13 3.31628e-13 3.31628e-13 6.94396e-13 3.31628e-13 6.94396e-13
5.30262e+02 2.01965e-10 5.62116e-13 3.69022e-13 3.69022e-13 5.62116e-13 3.69022e-13 5.62116e-13
5.31864e+02 1.96476e-10 4.60410e-13 4.20538e-13 4.20538e-13 4.60410e-13 4.20538e-13 4.60410e-13
5.33466e+02 2.01693e-10 3.87497e-13 4.92100e-13 4.92100e-13 3.87497e-13 4.92100e-13 3.87497e-13
5.35068e+02 2.18558e-10 3.35295e-13 5.93046e-13 5.93046e-13 3.35295e-13 5.93046e-13 3.35295e-13
5.36670e+02 2.49661e-10 2.97037e-13 7.38019e-13 7.38019e-13 2.97037e-13 7.38019e-13 2.97037e-13
5.38272e+02 2.99909e-10 2.68140e-13 9.48881e-13 9.48881e-13 2.68140e-13 9.48881e-13 2.68140e-13
5.39874e+02 3.75816e-10 2.45653e-13 1.25243e-12 1.25243e-12 2.45653e-13 1.25243e-12 2.45653e-13
5.41476e+02 4.79318e-10 2.27676e-13 1.65733e-12 1.65733e-12 2.27676e-13 1.65733e-12 2.27676e-13
5.43078e+02 5.87883e-10 2.12967e-13 2.07912e-12 2.07912e-12 2.12967e-13 2.07912e-12 2.12967e-13
5.44680e+02 6.37675e-10 2.00686e-13 2.27647e-12 2.27647e-12 2.00686e-13 2.27647e-12 2.00686e-13
5.46282e+02 5.84883e-10 1.90239e-13 2.08380e-12 2.08380e-12 1.90239e-13 2.08380e-12 1.90239e-13
5.47884e+02 4.76031e-10 1.81195e-13 1.67769e-12 1.67769e-12 1.81195e-13 1.67769e-12 1.81195e-13
5.49486e+02 3.73814e-10 1.73272e-13 1.29593e-12 1.29593e-12 1.73272e-13 1.29593e-12 1.73272e-13
5.51088e+02 2.99292e-10 1.66283e-13 1.01847e-12 1.01847e-12 1.66283e-13 1.01847e-12 1.66283e-13
5.52690e+02 2.50009e-10 1.60083e-13 8.36091e-13 8.36091e-13 1.60083e-13 8.36091e-13 1.60083e-13
5.54292e+02 2.19271e-10 1.54551e-13 7.23527e-13 7.23527e-13 1.54551e-13 7.23527e-13 1.54551e-13
5.55894e+02 2.01942e-10 1.49592e-13 6.61384e-13 6.61384e-13 1.49592e-13 6.61384e-13 1.49592e-13
5.57496e+02 1.95066e-10 1.45132e-13 6.38505e-13 6.38505e-13 1.45132e-13 6.38505e-13 1.45132e-13
5.59098e+02 1.97520e-10 1.41111e-13 6.50681e-13 6.50681e-13 1.41111e-13 6.50681e-13 1.41111e-13
5.60700e+02 2.09802e-10 1.37487e-13 6.99834e-13 6.99834e-13 1.37487e-13 6.99834e-13 1.37487e-13
5.62302e+02 2.34108e-10 1.34227e-13 7.94307e-13 7.94307e-13 1.34227e-13 7.94307e-13 1.34227e-13
5.63904e+02 2.74501e-10 1.31307e-13 9.49513e-13 9.49513e-13 1.31307e-13 9.49513e-13 1.31307e-13
5.65506e+02 3.36108e-10 1.28711e-13 1.18490e-12 1.18490e-12 1.28711e-13 1.18490e-12 1.28711e-13
5.67108e+02 4.19467e-10 1.26433e-13 1.50251e-12 1.50251e-12 1.26433e-13 1.50251e-12 1.26433e-13
5.68710e+02 5.03673e-10 1.24476e-13 1.82313e-12 1.82313e-12 1.24476e-13 1.82313e-12 1.24476e-13
5.70312e+02 5.36117e-10 1.22850e-13 1.94739e-12 1.94739e-12 1.22850e-13 1.94739e-12 1.22850e-13
5.71914e+02 4.87950e-10 1.21581e-13 1.76599e-12 1.76599e-12 1.21581e-13 1.76599e-12 1.21581e-13
5.73516e+02 4.01029e-10 1.20707e-13 1.43750e-12 1.43750e-12 1.20707e-13 1.43750e-12 1.20707e-13
5.75118e+02 3.22501e-10 1.20291e-13 1.14055e-12 1.14055e-12 1.20291e-13 1.14055e-12 1.20291e-13
5.76720e+02 2.66265e-10 1.20425e-13 9.27777e-13 9.27777e-13 1.20425e-13 9.27777e-13 1.20425e-13
5.78322e+02 2.29487e-10 1.21248e-13 7.88373e-13 7.88373e-13 1.21248e-13 7.88373e-13 1.21248e-13
5.79924e+02 2.06707e-10 1.22968e-13 7.01537e-13 7.01537e-13 1.22968e-13 7.01537e-13 1.22968e-13
5.81526e+02 1.93734e-10 1.25905e-13 6.51236e-13 6.51236e-13 1.25905e-13 6.51236e-13 1.25905e-13
5.83128e+02 1.87915e-10 1.30552e-13 6.27169e-13 6.27169e-13 1.30552e-13 6.27169e-13 1.30552e-13
5.84730e+02 1.87734e-10 1.37675e-13 6.23206e-13 6.23206e-13 1.37676e-13 6.23206e-13 1.37676e-13
5.86332e+02 1.92460e-10 1.48431e-13 6.36006e-13 6.36006e-13 1.48431e-13 6.36006e-13 1.48431e-13
5.87934e+02 2.01919e-10 1.64336e-13 6.64149e-13 6.64149e-13 1.64337e-13 6.64149e-13 1.64337e-13
5.89536e+02 2.16258e-10 1.86436e-13 7.07670e-13 7.07670e-13 1.86437e-13 7.07670e-13 1.86437e-13
5.91138e+02 2.35475e-10 2.12075e-13 7.67890e-13 7.67890e-13 2.12076e-13 7.67890e-13 2.12076e-13
5.92740e+02 2.58884e-10 2.30763e-13 8.47456e-13 8.47456e-13 2.30764e-13 8.47456e-13 2.30764e-13
5.94342e+02 2.86316e-10 2.32727e-13 9.50612e-13 9.50612e-13 2.32728e-13 9.50612e-13 2.32728e-13
5.95944e+02 3.20460e-10 2.25614e-13 1.08373e-12 1.08373e-12 2.25614e-13 1.08373e-12 2.25614e-13
5.97546e+02 3.65781e-10 2.24489e-13 1.25619e-12 1.25619e-12 2.24489e-13 1.25619e-12 2.24489e-13
5.99148e+02 4.26983e-10 2.37221e-13 1.48189e-12 1.48189e-12 2.37222e-13 1.48189e-12 2.37222e-13
6.00750e+02 5.09566e-10 2.63786e-13 1.78168e-12 1.78168e-12 2.63786e-13 1.78168e-12 2.63786e-13
6.02352e+02 6.20415e-10 2.92673e-13 2.18740e-12 2.18740e-12 2.92673e-13 2.18740e-12 2.92673e-13
6.03954e+02 7.69302e-10 2.98895e-13 2.74858e-12 2.74858e-12 2.98896e-13 2.74858e-12 2.98895e-13
6.05556e+02 9.75206e-10 2.70762e-13 3.54300e-12 3.54300e-12 2.70762e-13 3.54300e-12 2.70762e-13
6.07158e+02 1.27247e-09 2.27725e-13 4.69104e-12 4.69104e-12 2.27725e-13 4.69104e-12 2.27725e-13
6.08760e+02 1.70890e-09 1.89618e-13 6.36396e-12 6.36396e-12 1.89618e-13 6.36396e-12 1.89618e-13
6.10362e+02 2.33029e-09 1.61638e-13 8.73272e-12 8.73272e-12 1.61638e-13 8.73272e-12 1.61638e-13
6.11964e+02 3.10765e-09 1.42150e-13 1.16882e-11 1.16882e-11 1.42150e-13 1.16882e-11 1.42150e-13
6.13566e+02 3.76869e-09 1.28585e-13 1.42000e-11 1.42000e-11 1.28585e-13 1.42000e-11 1.28585e-13
6.15168e+02 3.83421e-09 1.18980e-13 1.44531e-11 1.44531e-11 1.18980e-13 1.44531e-11 1.18980e-13
6.16770e+02 3.24239e-09 1.12038e-13 1.22139e-11 1.22139e-11 1.12038e-13 1.22139e-11 1.12038e-13
6.18372e+02 2.45199e-09 1.06926e-13 9.22129e-12 9.22129e-12 1.06926e-13 9.22129e-12 1.06926e-13
6.19974e+02 1.79119e-09 1.03109e-13 6.71910e-12 6.71910e-12 1.03109e-13 6.71910e-12 1.03109e-13
6.21576e+02 1.31816e-09 1.00238e-13 4.92798e-12 4.92798e-12 1.00238e-13 4.92798e-12 1.00238e-13
6.23178e+02 9.92684e-10 9.80776e-14 3.69564e-12 3.69564e-12 9.80777e-14 3.69564e-12 9.80777e-14
6.24780e+02 7.67648e-10 9.64693e-14 2.84361e-12 2.84361e-12 9.64693e-14 2.84361e-12 9.64693e-14
6.26382e+02 6.08851e-10 9.53019e-14 2.24234e-12 2.24234e-12 9.53019e-14 2.24234e-12 9.53019e-14
6.27984e+02 4.94017e-10 9.44973e-14 1.80747e-12 1.80747e-12 9.44974e-14 1.80747e-12 9.44973e-14
6.29586e+02 4.08945e-10 9.40001e-14 1.48521e-12 1.48521e-12 9.40001e-14 1.48521e-12 9.40001e-14
6.31188e+02 3.44507e-10 9.37704e-14 1.24098e-12 1.24098e-12 9.37704e-14 1.24098e-12 9.37704e-14
6.32790e+02 2.94721e-10 9.37801e-14 1.05213e-12 1.05213e-12 9.37801e-14 1.05213e-12 9.37801e-14
6.34392e+02 2.55578e-10 9.40095e-14 9.03482e-13 9.03482e-13 9.40095e-14 9.03482e-13 9.40095e-14
6.35994e+02 2.24333e-10 9.44452e-14 7.84632e-13 7.84632e-13 9.44452e-14 7.84632e-13 9.44452e-14
6.37596e+02 1.99062e-10 9.50790e-14 6.88297e-13 6.88297e-13 9.50790e-14 6.88297e-13 9.50790e-14
6.39198e+02 1.78392e-10 9.59070e-14 6.09275e-13 6.09275e-13 9.59070e-14 6.09275e-13 9.59070e-14
6.40800e+02 1.61329e-10 9.69284e-14 5.43789e-13 5.43789e-13 9.69284e-14 5.43789e-13 9.69284e-14
6.42402e+02 1.47135e-10 9.81456e-14 4.89049e-13 4.89049e-13 9.81456e-14 4.89049e-13 9.81456e-14
6.44004e+02 1.35263e-10 9.95639e-14 4.42974e-13 4.42974e-13 9.95639e-14 4.42974e-13 9.95639e-14
6.45606e+02 1.25302e-10 1.01191e-13 4.03994e-13 4.03994e-13 1.01191e-13 4.03994e-13 1.01191e-13
6.47208e+02 1.16940e-10 1.03037e-13 3.70927e-13 3.70927e-13 1.03037e-13 3.70927e-13 1.03037e-13
6.48810e+02 1.09948e-10 1.05116e-13 3.42887e-13 3.42887e-13 1.05116e-13 3.42887e-13 1.05116e-13
6.50412e+02 1.04158e-10 1.07442e-13 3.19234e-13 3.19234e-13 1.07442e-13 3.19234e-13 1.07442e-13
6.52014e+02 9.94630e-11 1.10034e-13 2.99543e-13 2.99543e-13 1.10034e-13 2.99543e-13 1.10034e-13
6.53616e+02 9.58116e-11 1.12915e-13 2.83603e-13 2.83603e-13 1.12915e-13 2.83603e-13 1.12915e-13
6.55218e+02 9.32181e-11 1.16111e-13 2.71452e-13 2.71452e-13 1.16111e-13 2.71452e-13 1.16111e-13
6.56820e+02 9.17811e-11 1.19649e-13 2.63441e-13 2.63441e-13 1.19649e-13 2.63441e-13 1.19649e-13
6.58422e+02 9.17157e-11 1.23566e-13 2.60360e-13 2.60360e-13 1.23566e-13 2.60360e-13 1.23566e-13
6.60024e+02 9.33864e-11 1.27901e-13 2.63562e-13 2.63562e-13 1.27901e-13 2.63562e-13 1.27901e-13
6.61626e+02 9.72638e-11 1.32700e-13 2.74796e-13 2.74796e-13 1.32700e-13 2.74796e-13 1.32700e-13
6.63228e+02 1.03493e-10 1.38017e-13 2.94575e-13 2.94575e-13 1.38017e-13 2.94575e-13 1.38017e-13
6.64830e+02 1.10490e-10 1.43914e-13 3.16847e-13 3.16847e-13 1.43914e-13 3.16847e-13 1.43914e-13
6.66432e+02 1.13728e-10 1.50465e-13 3.24415e-13 3.24415e-13 1.50465e-13 3.24416e-13 1.50465e-13
6.68034e+02 1.10082e-10 1.57755e-13 3.05367e-13 3.05367e-13 1.57755e-13 3.05367e-13 1.57755e-13
6.69636e+02 1.02868e-10 1.65886e-13 2.72197e-13 2.72197e-13 1.65886e-13 2.72197e-13 1.65886e-13
6.71238e+02 9.66013e-11 1.74977e-13 2.41937e-13 2.41937e-13 1.74977e-13 2.41937e-13 1.74977e-13
6.72840e+02 9.28563e-11 1.85170e-13 2.20444e-13 2.20444e-13 1.85170e-13 2.20444e-13 1.85170e-13
6.74442e+02 9.15449e-11 1.96636e-13 2.07266e-13 2.07266e-13 1.96636e-13 2.07266e-13 1.96636e-13
6.76044e+02 9.23061e-11 2.09579e-13 2.00887e-13 2.00887e-13 2.09579e-13 2.00887e-13 2.09579e-13
6.77646e+02 9.49347e-11 2.24247e-13 2.00352e-13 2.00352e-13 2.24248e-13 2.00352e-13 2.24248e-13
6.79248e+02 9.94464e-11 2.40945e-13 2.05505e-13 2.05505e-13 2.40945e-13 2.05505e-13 2.40945e-13
6.80850e+02 1.06086e-10 2.60045e-13 2.17005e-13 2.17005e-13 2.60045e-13 2.17005e-13 2.60045e-13
6.82452e+02 1.15363e-10 2.82010e-13 2.36457e-13 2.36457e-13 2.82010e-13 2.36458e-13 2.82010e-13
6.84054e+02 1.28151e-10 3.07419e-13 2.66752e-13 2.66752e-13 3.07419e-13 2.66752e-13 3.07419e-13
6.85656e+02 1.45853e-10 3.37005e-13 3.12686e-13 3.12686e-13 3.37005e-13 3.12686e-13 3.37005e-13
6.87258e+02 1.70649e-10 3.71705e-13 3.81845e-13 3.81845e-13 3.71705e-13 3.81846e-13 3.71705e-13
6.88860e+02 2.05624e-10 4.12733e-13 4.85062e-13 4.85062e-13 4.12733e-13 4.85063e-13 4.12733e-13
6.90462e+02 2.53873e-10 4.61678e-13 6.32925e-13 6.32925e-13 4.61678e-13 6.32926e-13 4.61678e-13
6.92064e+02 3.13659e-10 5.20653e-13 8.17339e-13 8.17339e-13 5.20653e-13 8.17340e-13 5.20653e-13
6.93666e+02 3.67657e-10 5.92513e-13 9.70621e-13 9.70621e-13 5.92513e-13 9.70623e-13 5.92513e-13
6.95268e+02 3.86370e-10 6.81179e-13 9.78187e-13 9.78187e-13 6.81179e-13 9.78189e-13 6.81179e-13
6.96870e+02 3.68279e-10 7.92138e-13 8.30368e-13 8.30368e-13 7.92138e-13 8.30369e-13 7.92138e-13
6.98472e+02 3.44262e-10 9.33229e-13 6.38566e-13 6.38566e-13 9.33229e-13 6.38567e-13 9.33229e-13
7.00074e+02 3.36640e-10 1.11589e-12 4.79200e-13 4.79200e-13 1.11589e-12 4.79201e-13 1.11589e-12
7.01676e+02 3.51962e-10 1.35721e-12 3.64885e-13 3.64885e-13 1.35721e-12 3.64886e-13 1.35721e-12
7.03278e+02 3.92532e-10 1.68326e-12 2.85711e-13 2.85711e-13 1.68326e-12 2.85712e-13 1.68326e-12
7.04880e+02 4.63034e-10 2.13467e-12 2.30435e-13 2.30435e-13 2.13467e-12 2.30435e-13 2.13467e-12
7.06482e+02 5.73332e-10 2.77509e-12 1.90941e-13 1.90941e-13 2.77509e-12 1.90941e-13 2.77509e-12
7.08084e+02 7.40436e-10 3.70218e-12 1.61950e-13 1.61950e-13 3.70218e-12 1.61951e-13 3.70218e-12
7.09686e+02 9.88648e-10 5.04957e-12 1.40096e-13 1.40096e-13 5.04957e-12 1.40096e-13 5.04957e-12
7.11288e+02 1.33817e-09 6.92745e-12 1.23210e-13 1.23210e-13 6.92745e-12 1.23210e-13 6.92745e-12
7.12890e+02 1.75456e-09 9.15515e-12 1.09869e-13 1.09869e-13 9.15515e-12 1.09869e-13 9.15515e-12
7.14492e+02 2.05789e-09 1.07794e-11 9.91166e-14 9.91166e-14 1.07794e-11 9.91167e-14 1.07794e-11
7.16094e+02 2.00728e-09 1.05233e-11 9.02959e-14 9.02959e-14 1.05233e-11 9.02960e-14 1.05233e-11
7.17696e+02 1.64672e-09 8.62074e-12 8.29451e-14 8.29451e-14 8.62074e-12 8.29452e-14 8.62074e-12
7.19298e+02 1.23129e-09 6.42548e-12 7.67328e-14 7.67328e-14 6.42548e-12 7.67329e-14 6.42548e-12
7.20900e+02 9.00288e-10 4.67689e-12 7.14169e-14 7.14169e-14 4.67689e-12 7.14170e-14 4.67689e-12
7.22502e+02 6.66567e-10 3.44339e-12 6.68171e-14 6.68171e-14 3.44339e-12 6.68171e-14 3.44339e-12
7.24104e+02 5.05761e-10 2.59590e-12 6.27970e-14 6.27970e-14 2.59590e-12 6.27971e-14 2.59590e-12
7.25706e+02 3.94000e-10 2.00795e-12 5.92522e-14 5.92522e-14 2.00795e-12 5.92523e-14 2.00795e-12
7.27308e+02 3.14574e-10 1.59098e-12 5.61013e-14 5.61013e-14 1.59098e-12 5.61014e-14 1.59098e-12
7.28910e+02 2.56691e-10 1.28784e-12 5.32803e-14 5.32803e-14 1.28784e-12 5.32803e-14 1.28784e-12
7.30512e+02 2.13467e-10 1.06209e-12 5.07381e-14 5.07381e-14 1.06209e-12 5.07381e-14 1.06209e-12
7.32114e+02 1.80460e-10 8.90198e-13 4.84337e-14 4.84337e-14 8.90198e-13 4.84337e-14 8.90198e-13
7.33716e+02 1.54744e-10 7.56699e-13 4.63336e-14 4.63336e-14 7.56699e-13 4.63336e-14 7.56699e-13
7.35318e+02 1.34345e-10 6.51167e-13 4.44105e-14 4.44105e-14 6.51167e-13 4.44106e-14 6.51167e-13
7.36920e+02 1.17906e-10 5.66424e-13 4.26418e-14 4.26418e-14 5.66424e-13 4.26418e-14 5.66424e-13
7.38522e+02 1.04469e-10 4.97417e-13 4.10084e-14 4.10084e-14 4.97417e-13 4.10084e-14 4.97417e-13
7.40124e+02 9.33462e-11 4.40521e-13 3.94945e-14 3.94945e-14 4.40521e-13 3.94945e-14 4.40521e-13
7.41726e+02 8.40341e-11 3.93083e-13 3.80867e-14 3.80867e-14 3.93083e-13 3.80867e-14 3.93083e-13
7.43328e+02 7.61583e-11 3.53132e-13 3.67734e-14 3.67734e-14 3.53132e-13 3.67734e-14 3.53132e-13
7.44930e+02 6.94358e-11 3.19181e-13 3.55449e-14 3.55449e-14 3.19181e-13 3.55449e-14 3.19181e-13
7.46532e+02 6.36497e-11 2.90092e-13 3.43927e-14 3.43927e-14 2.90092e-13 3.43927e-14 2.90092e-13
7.48134e+02 5.86316e-11 2.64980e-13 3.33095e-14 3.33095e-14 2.64980e-13 3.33095e-14 2.64980e-13
7.49736e+02 5.42493e-11 2.43154e-13 3.22888e-14 3.22888e-14 2.43154e-13 3.22888e-14 2.43154e-13
7.51338e+02 5.03979e-11 2.24064e-13 3.13251e-14 3.13251e-14 2.24064e-13 3.13252e-14 2.24064e-13
7.52940e+02 4.69933e-11 2.07272e-13 3.04135e-14 3.04135e-14 2.07272e-13 3.04135e-14 2.07272e-13
7.54542e+02 4.39673e-11 1.92423e-13 2.95496e-14 2.95496e-14 1.92423e-13 2.95497e-14 1.92423e-13
7.56144e+02 4.12644e-11 1.79226e-13 2.87296e-14 2.87296e-14 1.79226e-13 2.87296e-14 1.79226e-13
7.57746e+02 3.88390e-11 1.67444e-13 2.79500e-14 2.79500e-14 1.67444e-13 2.79500e-14 1.67444e-13
7.59348e+02 3.66531e-11 1.56881e-13 2.72078e-14 2.72078e-14 1.56881e-13 2.72078e-14 1.56881e-13
7.60950e+02 3.46753e-11 1.47374e-13 2.65002e-14 2.65002e-14 1.47374e-13 2.65003e-14 1.47374e-13
7.62552e+02 3.28790e-11 1.38784e-13 2.58248e-14 2.58248e-14 1.38784e-13 2.58248e-14 1.38784e-13
7.64154e+02 3.12418e-11 1.30997e-13 2.51793e-14 2.51793e-14 1.30997e-13 2.51793e-14 1.30997e-13
7.65756e+02 2.97448e-11 1.23915e-13 2.45617e-14 2.45617e-14 1.23915e-13 2.45617e-14 1.23915e-13
7.67358e+02 2.83716e-11 1.17453e-13 2.39702e-14 2.39702e-14 1.17453e-13 2.39702e-14 1.17453e-13
7.68960e+02 2.71085e-11 1.11541e-13 2.34031e-14 2.34031e-14 1.11541e-13 2.34031e-14 1.11541e-13
7.70562e+02 2.59435e-11 1.06117e-13 2.28589e-14 2.28589e-14 1.06117e-13 2.28589e-14 1.06117e-13
7.72164e+02 2.48660e-11 1.01128e-13 2.23362e-14 2.23362e-14 1.01128e-13 2.23362e-14 1.01128e-13
7.73766e+02 2.38672e-11 9.65279e-14 2.18337e-14 2.18337e-14 9.65279e-14 2.18337e-14 9.65279e-14
7.75368e+02 2.29391e-11 9.22763e-14 2.13502e-14 2.13502e-14 9.22763e-14 2.13503e-14 9.22763e-14
7.76970e+02 2.20748e-11 8.83384e-14 2.08848e-14 2.08848e-14 8.83384e-14 2.08848e-14 8.83384e-14
7.78572e+02 2.12683e-11 8.46834e-14 2.04363e-14 2.04363e-14 8.46834e-14 2.04363e-14 8.46834e-14
7.80174e+02 2.05143e-11 8.12841e-14 2.00039e-14 2.00039e-14 8.12841e-14 2.00039e-14 8.12841e-14
7.81776e+02 1.98080e-11 7.81166e-14 1.95866e-14 1.95866e-14 7.81166e-14 1.95867e-14 7.81166e-14
7.83378e+02 1.91452e-11 7.51599e-14 1.91838e-14 1.91838e-14 7.51599e-14 1.91838e-14 7.51599e-14
7.84980e+02 1.85221e-11 7.23951e-14 1.87947e-14 1.87947e-14 7.23951e-14 1.87947e-14 7.23951e-14
7.86582e+02 1.79355e-11 6.98055e-14 1.84186e-14 1.84186e-14 6.98055e-14 1.84186e-14 6.98055e-14
7.88184e+02 1.73823e-11 6.73760e-14 1.80549e-14 1.80549e-14 6.73760e-14 1.80549e-14 6.73760e-14
7.89786e+02 1.68600e-11 6.50935e-14 1.77029e-14 1.77029e-14 6.50935e-14 1.77029e-14 6.50935e-14
7.91388e+02 1.63659e-11 6.29457e-14 1.73621e-14 1.73621e-14 6.29457e-14 1.73621e-14 6.29457e-14
7.92990e+02 1.58981e-11 6.09220e-14 1.70320e-14 1.70320e-14 6.09220e-14 1.70320e-14 6.09220e-14
7.94592e+02 1.54545e-11 5.90126e-14 1.67122e-14 1.67122e-14 5.90126e-14 1.67122e-14 5.90126e-14
7.96194e+02 1.50334e-11 5.72088e-14 1.64020e-14 1.64020e-14 5.72088e-14 1.64020e-14 5.72088e-14
7.97796e+02 1.46331e-11 5.55026e-14 1.61012e-14 1.61012e-14 5.55026e-14 1.61012e-14 5.55026e-14
7.99398e+02 1.42521e-11 5.38867e-14 1.58094e-14 1.58094e-14 5.38867e-14 1.58094e-14 5.38867e-14
8.00800e+02 1.39337e-11 5.25417e-14 1.55610e-14 1.55610e-14 5.25417e-14 1.55610e-14 5.25417e-14